File: Electrochemical test/Mo-Ar/1/PSTATIC.DTA
EXPLAIN
TAG	POTENTIOSTATIC
TITLE	LABEL	Potentiostatic Scan	Test Identifier
DATE	LABEL	2024/12/19	Date
TIME	LABEL	20:05:31	Time
NOTES	NOTES	1	Notes...

PSTAT	PSTAT	REF620-49029	Potentiostat
VINIT	POTEN	-8.00000E-001	F	Initial E (V)
TINIT	QUANT	1.80000E+002	Initial Time (s)
VFINAL	POTEN	-8.00000E-001	F	Final E (V)
TFINAL	QUANT	0.00000E+000	Final Time (s)
SAMPLETIME	QUANT	1.00000E+000	Sample Period (s)
ILIMIT	QUANT	2.50000E+001	Limit I (mA/cm^2)
AREA	QUANT	1.00000E+000	Sample Area (cm^2)
DENSITY	QUANT	7.87000E+000	Density (g/cm^3)
EQUIV	QUANT	2.79200E+001	Equiv. Wt
IRCOMP	TOGGLE	F	IR Comp
EOC	QUANT	0	Open Circuit (V)
ELECTRODETYPE	SELECTOR	0	Electrode Type
STRIPPING	TOGGLE	F	Used for Stripping
SEQUENCER	TOGGLE	TRUE	Run as Sequence
PSTATMODEL	IQUANT	87	Pstat Model
PSTATSECTION	LABEL	REF620-49029	Pstat Section
PSTATSERIALNO	LABEL	49029	Pstat Serial Number
CTRLMODE	IQUANT	1	Control Mode
ELECTROMETER	IQUANT	0	RE=0 or CS=1
IESTAB	IQUANT	2	I/E Stability
CASPEED	IQUANT	4	Control Amp Speed
CONVENTION	IQUANT	1	Current Convention
ICHRANGE	IQUANT	2	Ich Range
ICHRANGEMODE	TOGGLE	T	Ich Auto Range
ICHOFFSETENABLE	TOGGLE	F	Ich Offset Enable
ICHOFFSET	QUANT	0	Ich Offset (V)
ICHFILTER	IQUANT	3	Ich Filter
VCHRANGE	IQUANT	3	Vch Range
VCHRANGEMODE	TOGGLE	T	Vch Auto Range
VCHOFFSETENABLE	TOGGLE	F	Vch Offset Enable
VCHOFFSET	QUANT	0	Vch Offset (V)
VCHFILTER	IQUANT	3	Vch Filter
ACHRANGE	IQUANT	2	Ach Range
ACHOFFSETENABLE	TOGGLE	F	Ach Offset Enable
ACHOFFSET	QUANT	0	Ach Offset (V)
ACHFILTER	IQUANT	1	Ach Filter
IERANGELOWERLIMIT	IQUANT	4	I/E Range Lower Limit
IERANGEMODE	TOGGLE	T	I/E AutoRange
IERANGE	IQUANT	10	I/E Range
POSFEEDENABLE	TOGGLE	F	Positive Feedback IR Comp
POSFEEDRESISTANCE	QUANT	0	Positive Feedback Resistance (ohm)
ACHSELECT	IQUANT	0	Ach Select
SENSECABLEID	IQUANT	7	Sense Cable ID
PWRCABLEID	IQUANT	7	Power Cable ID
DCCALDATE	LABEL	3/28/2024	DC Calibration Date
ACCALDATE	LABEL	6/22/2023	AC Calibration Date
THERMOSELECT	IQUANT	1	Thermo Select
FRAMEWORKVERSION	LABEL	7.10.3	Framework Version
INSTRUMENTVERSION	LABEL	4.91	Instrument Version
COMMVERSION	LABEL	5.10	Communications Version
CPUPLDVERSION	LABEL	6.00	CPU PLD Version
CTRLPLDVERSION	LABEL	7.10	CTRL PLD Version
PSTATPLDVERSION	LABEL	8.13	PSTAT PLD Version
CURVE	TABLE	180
	Pt	T	Vf	Im	Vu	Sig	Ach	IERange	Over	Temp
	#	s	V vs. Ref.	A	V	V	V	#	bits	deg C
	0	1	-8.00252E-001	-3.25919E-005	0.00000E+000	-7.99647E-001	4.81649E-004	7	...........	-327.67
	1	2	-8.00040E-001	-2.83750E-005	0.00000E+000	-7.99647E-001	4.59402E-004	7	...........	-327.67
	2	3	-8.00073E-001	-2.54415E-005	0.00000E+000	-7.99647E-001	4.81649E-004	7	...........	-327.67
	3	4	-8.00082E-001	-2.32703E-005	0.00000E+000	-7.99647E-001	4.59302E-004	7	...........	-327.67
	4	5	-8.00096E-001	-2.15937E-005	0.00000E+000	-7.99647E-001	4.82416E-004	7	...........	-327.67
	5	6	-8.00095E-001	-2.02582E-005	0.00000E+000	-7.99647E-001	4.59969E-004	7	...........	-327.67
	6	7	-8.00091E-001	-1.91323E-005	0.00000E+000	-7.99647E-001	4.83566E-004	7	...........	-327.67
	7	8	-8.00103E-001	-1.82090E-005	0.00000E+000	-7.99647E-001	4.58018E-004	7	...........	-327.67
	8	9	-8.00116E-001	-1.74321E-005	0.00000E+000	-7.99647E-001	4.82432E-004	7	...........	-327.67
	9	10	-8.00103E-001	-1.67590E-005	0.00000E+000	-7.99647E-001	4.56650E-004	7	...........	-327.67
	10	11	-8.00114E-001	-1.61744E-005	0.00000E+000	-7.99647E-001	4.81298E-004	7	...........	-327.67
	11	12	-8.00125E-001	-1.56618E-005	0.00000E+000	-7.99647E-001	4.58418E-004	7	...........	-327.67
	12	13	-8.00115E-001	-1.51952E-005	0.00000E+000	-7.99647E-001	4.83917E-004	7	...........	-327.67
	13	14	-8.00115E-001	-1.47837E-005	0.00000E+000	-7.99647E-001	4.59219E-004	7	...........	-327.67
	14	15	-8.00117E-001	-1.44201E-005	0.00000E+000	-7.99647E-001	4.83383E-004	7	...........	-327.67
	15	16	-8.00125E-001	-1.40643E-005	0.00000E+000	-7.99647E-001	4.58418E-004	7	...........	-327.67
	16	17	-8.00128E-001	-1.37795E-005	0.00000E+000	-7.99647E-001	4.84467E-004	7	...........	-327.67
	17	18	-8.00130E-001	-1.34932E-005	0.00000E+000	-7.99647E-001	4.58685E-004	7	...........	-327.67
	18	19	-8.00141E-001	-1.32367E-005	0.00000E+000	-7.99647E-001	4.83666E-004	7	...........	-327.67
	19	20	-8.00133E-001	-1.29957E-005	0.00000E+000	-7.99647E-001	4.58518E-004	7	...........	-327.67
	20	21	-8.00143E-001	-1.27777E-005	0.00000E+000	-7.99647E-001	4.82966E-004	7	...........	-327.67
	21	22	-8.00130E-001	-1.25662E-005	0.00000E+000	-7.99647E-001	4.37072E-004	7	...........	-327.67
	22	23	-8.00127E-001	-1.23831E-005	0.00000E+000	-7.99647E-001	4.29418E-004	7	...........	-327.67
	23	24	-8.00142E-001	-1.22192E-005	0.00000E+000	-7.99647E-001	4.27666E-004	7	...........	-327.67
	24	25	-8.00121E-001	-1.20658E-005	0.00000E+000	-7.99647E-001	4.27466E-004	7	...........	-327.67
	25	26	-8.00138E-001	-1.19056E-005	0.00000E+000	-7.99647E-001	4.26666E-004	7	...........	-327.67
	26	27	-8.00130E-001	-1.17598E-005	0.00000E+000	-7.99647E-001	4.29584E-004	7	...........	-327.67
	27	28	-8.00139E-001	-1.16132E-005	0.00000E+000	-7.99647E-001	4.26766E-004	7	...........	-327.67
	28	29	-8.00137E-001	-1.14884E-005	0.00000E+000	-7.99647E-001	4.25682E-004	7	...........	-327.67
	29	30	-8.00128E-001	-1.13521E-005	0.00000E+000	-7.99647E-001	4.26716E-004	7	...........	-327.67
	30	31	-8.00133E-001	-1.12195E-005	0.00000E+000	-7.99647E-001	4.26699E-004	7	...........	-327.67
	31	32	-8.00127E-001	-1.10987E-005	0.00000E+000	-7.99647E-001	4.29051E-004	7	...........	-327.67
	32	33	-8.00133E-001	-1.09875E-005	0.00000E+000	-7.99647E-001	4.29251E-004	7	...........	-327.67
	33	34	-8.00137E-001	-1.08778E-005	0.00000E+000	-7.99647E-001	4.27466E-004	7	...........	-327.67
	34	35	-8.00144E-001	-1.07766E-005	0.00000E+000	-7.99647E-001	4.27900E-004	7	...........	-327.67
	35	36	-8.00137E-001	-1.06810E-005	0.00000E+000	-7.99647E-001	4.27800E-004	7	...........	-327.67
	36	37	-8.00139E-001	-1.05916E-005	0.00000E+000	-7.99647E-001	4.27483E-004	7	...........	-327.67
	37	38	-8.00131E-001	-1.04988E-005	0.00000E+000	-7.99647E-001	4.24998E-004	7	...........	-327.67
	38	39	-8.00133E-001	-1.04151E-005	0.00000E+000	-7.99647E-001	4.26216E-004	7	...........	-327.67
	39	40	-8.00131E-001	-1.03366E-005	0.00000E+000	-7.99647E-001	4.26683E-004	7	...........	-327.67
	40	41	-8.00140E-001	-1.02580E-005	0.00000E+000	-7.99647E-001	4.27016E-004	7	...........	-327.67
	41	42	-8.00146E-001	-1.01935E-005	0.00000E+000	-7.99647E-001	4.23664E-004	7	...........	-327.67
	42	43	-8.00142E-001	-1.01273E-005	0.00000E+000	-7.99647E-001	4.24831E-004	7	...........	-327.67
	43	44	-8.00140E-001	-1.00620E-005	0.00000E+000	-7.99647E-001	4.25549E-004	7	...........	-327.67
	44	45	-8.00152E-001	-9.99549E-006	0.00000E+000	-7.99647E-001	4.27066E-004	7	...........	-327.67
	45	46	-8.00140E-001	-9.93694E-006	0.00000E+000	-7.99647E-001	4.24281E-004	7	...........	-327.67
	46	47	-8.00135E-001	-9.87738E-006	0.00000E+000	-7.99647E-001	4.26833E-004	7	...........	-327.67
	47	48	-8.00145E-001	-9.81503E-006	0.00000E+000	-7.99647E-001	4.25399E-004	7	...........	-327.67
	48	49	-8.00147E-001	-9.75715E-006	0.00000E+000	-7.99647E-001	4.26983E-004	7	...........	-327.67
	49	50	-8.00151E-001	-9.69911E-006	0.00000E+000	-7.99647E-001	4.25482E-004	7	...........	-327.67
	50	51	-8.00146E-001	-9.64396E-006	0.00000E+000	-7.99647E-001	4.26866E-004	7	...........	-327.67
	51	52	-8.00149E-001	-9.58994E-006	0.00000E+000	-7.99647E-001	4.26282E-004	7	...........	-327.67
	52	53	-8.00138E-001	-9.55473E-006	0.00000E+000	-7.99647E-001	4.25165E-004	7	...........	-327.67
	53	54	-8.00145E-001	-9.50582E-006	0.00000E+000	-7.99647E-001	4.26516E-004	7	...........	-327.67
	54	55	-8.00144E-001	-9.46454E-006	0.00000E+000	-7.99647E-001	4.27850E-004	7	...........	-327.67
	55	56	-8.00148E-001	-9.42768E-006	0.00000E+000	-7.99647E-001	4.26883E-004	7	...........	-327.67
	56	57	-8.00154E-001	-9.39856E-006	0.00000E+000	-7.99647E-001	4.26566E-004	7	...........	-327.67
	57	58	-8.00139E-001	-9.35125E-006	0.00000E+000	-7.99647E-001	4.27533E-004	7	...........	-327.67
	58	59	-8.00153E-001	-9.31255E-006	0.00000E+000	-7.99647E-001	4.27116E-004	7	...........	-327.67
	59	60	-8.00146E-001	-9.27343E-006	0.00000E+000	-7.99647E-001	4.27817E-004	7	...........	-327.67
	60	61	-8.00151E-001	-9.23102E-006	0.00000E+000	-7.99647E-001	4.28033E-004	7	...........	-327.67
	61	62	-8.00154E-001	-9.18949E-006	0.00000E+000	-7.99647E-001	4.25048E-004	7	...........	-327.67
	62	63	-8.00139E-001	-9.15516E-006	0.00000E+000	-7.99647E-001	4.26816E-004	7	...........	-327.67
	63	64	-8.00146E-001	-9.11563E-006	0.00000E+000	-7.99647E-001	4.24965E-004	7	...........	-327.67
	64	65	-8.00144E-001	-9.07827E-006	0.00000E+000	-7.99647E-001	4.26499E-004	7	...........	-327.67
	65	66	-8.00154E-001	-9.05337E-006	0.00000E+000	-7.99647E-001	4.27350E-004	7	...........	-327.67
	66	67	-8.00155E-001	-9.02464E-006	0.00000E+000	-7.99647E-001	4.27200E-004	7	...........	-327.67
	67	68	-8.00154E-001	-8.99289E-006	0.00000E+000	-7.99647E-001	4.26449E-004	7	...........	-327.67
	68	69	-8.00154E-001	-8.97113E-006	0.00000E+000	-7.99647E-001	4.26649E-004	7	...........	-327.67
	69	70	-8.00150E-001	-8.93502E-006	0.00000E+000	-7.99647E-001	4.26633E-004	7	...........	-327.67
	70	71	-8.00148E-001	-8.89483E-006	0.00000E+000	-7.99647E-001	4.28117E-004	7	...........	-327.67
	71	72	-8.00155E-001	-8.86274E-006	0.00000E+000	-7.99647E-001	4.26849E-004	7	...........	-327.67
	72	73	-8.00157E-001	-8.82525E-006	0.00000E+000	-7.99647E-001	4.27416E-004	7	...........	-327.67
	73	74	-8.00150E-001	-8.79624E-006	0.00000E+000	-7.99647E-001	4.27266E-004	7	...........	-327.67
	74	75	-8.00152E-001	-8.76922E-006	0.00000E+000	-7.99647E-001	4.26499E-004	7	...........	-327.67
	75	76	-8.00149E-001	-8.73149E-006	0.00000E+000	-7.99647E-001	4.28083E-004	7	...........	-327.67
	76	77	-8.00149E-001	-8.70257E-006	0.00000E+000	-7.99647E-001	4.27733E-004	7	...........	-327.67
	77	78	-8.00163E-001	-8.67189E-006	0.00000E+000	-7.99647E-001	4.28233E-004	7	...........	-327.67
	78	79	-8.00149E-001	-8.64146E-006	0.00000E+000	-7.99647E-001	4.25515E-004	7	...........	-327.67
	79	80	-8.00157E-001	-8.61814E-006	0.00000E+000	-7.99647E-001	4.26132E-004	7	...........	-327.67
	80	81	-8.00157E-001	-8.59185E-006	0.00000E+000	-7.99647E-001	4.27933E-004	7	...........	-327.67
	81	82	-8.00147E-001	-8.56660E-006	0.00000E+000	-7.99647E-001	4.27133E-004	7	...........	-327.67
	82	83	-8.00148E-001	-8.54644E-006	0.00000E+000	-7.99647E-001	4.27233E-004	7	...........	-327.67
	83	84	-8.00147E-001	-8.51437E-006	0.00000E+000	-7.99647E-001	4.26482E-004	7	...........	-327.67
	84	85	-8.00153E-001	-8.48280E-006	0.00000E+000	-7.99647E-001	4.25365E-004	7	...........	-327.67
	85	86	-8.00148E-001	-8.45824E-006	0.00000E+000	-7.99647E-001	4.26299E-004	7	...........	-327.67
	86	87	-8.00151E-001	-8.43217E-006	0.00000E+000	-7.99647E-001	4.25532E-004	7	...........	-327.67
	87	88	-8.00157E-001	-8.40652E-006	0.00000E+000	-7.99647E-001	4.26499E-004	7	...........	-327.67
	88	89	-8.00151E-001	-8.38175E-006	0.00000E+000	-7.99647E-001	4.25465E-004	7	...........	-327.67
	89	90	-8.00160E-001	-8.35601E-006	0.00000E+000	-7.99647E-001	4.26616E-004	7	...........	-327.67
	90	91	-8.00162E-001	-8.32471E-006	0.00000E+000	-7.99647E-001	4.27099E-004	7	...........	-327.67
	91	92	-8.00155E-001	-8.30382E-006	0.00000E+000	-7.99647E-001	4.27783E-004	7	...........	-327.67
	92	93	-8.00145E-001	-8.27567E-006	0.00000E+000	-7.99647E-001	4.27583E-004	7	...........	-327.67
	93	94	-8.00161E-001	-8.25245E-006	0.00000E+000	-7.99647E-001	4.25332E-004	7	...........	-327.67
	94	95	-8.00149E-001	-8.23328E-006	0.00000E+000	-7.99647E-001	4.27366E-004	7	...........	-327.67
	95	96	-8.00158E-001	-8.22230E-006	0.00000E+000	-7.99647E-001	4.27700E-004	7	...........	-327.67
	96	97	-8.00152E-001	-8.20389E-006	0.00000E+000	-7.99647E-001	4.26883E-004	7	...........	-327.67
	97	98	-8.00151E-001	-8.18253E-006	0.00000E+000	-7.99647E-001	4.27316E-004	7	...........	-327.67
	98	99	-8.00139E-001	-8.16158E-006	0.00000E+000	-7.99647E-001	4.26366E-004	7	...........	-327.67
	99	100	-8.00144E-001	-8.14205E-006	0.00000E+000	-7.99647E-001	4.26266E-004	7	...........	-327.67
	100	101	-8.00147E-001	-8.12497E-006	0.00000E+000	-7.99647E-001	4.27450E-004	7	...........	-327.67
	101	102	-8.00143E-001	-8.10773E-006	0.00000E+000	-7.99647E-001	4.26749E-004	7	...........	-327.67
	102	103	-8.00146E-001	-8.08809E-006	0.00000E+000	-7.99647E-001	4.27283E-004	7	...........	-327.67
	103	104	-8.00147E-001	-8.06916E-006	0.00000E+000	-7.99647E-001	4.26949E-004	7	...........	-327.67
	104	105	-8.00153E-001	-8.05336E-006	0.00000E+000	-7.99647E-001	4.27433E-004	7	...........	-327.67
	105	106	-8.00162E-001	-8.03455E-006	0.00000E+000	-7.99647E-001	4.28484E-004	7	...........	-327.67
	106	107	-8.00147E-001	-8.01518E-006	0.00000E+000	-7.99647E-001	4.25832E-004	7	...........	-327.67
	107	108	-8.00157E-001	-8.00128E-006	0.00000E+000	-7.99647E-001	4.27817E-004	7	...........	-327.67
	108	109	-8.00159E-001	-7.98341E-006	0.00000E+000	-7.99647E-001	4.27850E-004	7	...........	-327.67
	109	110	-8.00152E-001	-7.96770E-006	0.00000E+000	-7.99647E-001	4.27983E-004	7	...........	-327.67
	110	111	-8.00153E-001	-7.94725E-006	0.00000E+000	-7.99647E-001	4.25782E-004	7	...........	-327.67
	111	112	-8.00142E-001	-7.94055E-006	0.00000E+000	-7.99647E-001	4.27166E-004	7	...........	-327.67
	112	113	-8.00157E-001	-7.92614E-006	0.00000E+000	-7.99647E-001	4.25282E-004	7	...........	-327.67
	113	114	-8.00146E-001	-7.91358E-006	0.00000E+000	-7.99647E-001	4.27516E-004	7	...........	-327.67
	114	115	-8.00153E-001	-7.90206E-006	0.00000E+000	-7.99647E-001	4.27666E-004	7	...........	-327.67
	115	116	-8.00153E-001	-7.89014E-006	0.00000E+000	-7.99647E-001	4.28350E-004	7	...........	-327.67
	116	117	-8.00146E-001	-7.87298E-006	0.00000E+000	-7.99647E-001	4.26049E-004	7	...........	-327.67
	117	118	-8.00156E-001	-7.90328E-006	0.00000E+000	-7.99647E-001	4.28067E-004	7	...........	-327.67
	118	119	-8.00154E-001	-7.87725E-006	0.00000E+000	-7.99647E-001	4.25782E-004	7	...........	-327.67
	119	120	-8.00154E-001	-7.85956E-006	0.00000E+000	-7.99647E-001	4.26182E-004	7	...........	-327.67
	120	121	-8.00161E-001	-7.84069E-006	0.00000E+000	-7.99647E-001	4.29051E-004	7	...........	-327.67
	121	122	-8.00165E-001	-7.82574E-006	0.00000E+000	-7.99647E-001	4.26933E-004	7	...........	-327.67
	122	123	-8.00154E-001	-7.80523E-006	0.00000E+000	-7.99647E-001	4.28300E-004	7	...........	-327.67
	123	124	-8.00152E-001	-7.78700E-006	0.00000E+000	-7.99647E-001	4.26149E-004	7	...........	-327.67
	124	125	-8.00152E-001	-7.77127E-006	0.00000E+000	-7.99647E-001	4.28750E-004	7	...........	-327.67
	125	126	-8.00164E-001	-7.75640E-006	0.00000E+000	-7.99647E-001	4.26232E-004	7	...........	-327.67
	126	127	-8.00151E-001	-7.73883E-006	0.00000E+000	-7.99647E-001	4.27933E-004	7	...........	-327.67
	127	128	-8.00156E-001	-7.72087E-006	0.00000E+000	-7.99647E-001	4.27600E-004	7	...........	-327.67
	128	129	-8.00162E-001	-7.70505E-006	0.00000E+000	-7.99647E-001	4.28684E-004	7	...........	-327.67
	129	130	-8.00162E-001	-7.68789E-006	0.00000E+000	-7.99647E-001	4.27200E-004	7	...........	-327.67
	130	131	-8.00165E-001	-7.67870E-006	0.00000E+000	-7.99647E-001	4.26182E-004	7	...........	-327.67
	131	132	-8.00163E-001	-7.66182E-006	0.00000E+000	-7.99647E-001	4.25749E-004	7	...........	-327.67
	132	133	-8.00153E-001	-7.64949E-006	0.00000E+000	-7.99647E-001	4.29117E-004	7	...........	-327.67
	133	134	-8.00168E-001	-7.63663E-006	0.00000E+000	-7.99647E-001	4.29401E-004	7	...........	-327.67
	134	135	-8.00154E-001	-7.64284E-006	0.00000E+000	-7.99647E-001	4.27550E-004	7	...........	-327.67
	135	136	-8.00168E-001	-7.61723E-006	0.00000E+000	-7.99647E-001	4.30001E-004	7	...........	-327.67
	136	137	-8.00162E-001	-7.60657E-006	0.00000E+000	-7.99647E-001	4.29001E-004	7	...........	-327.67
	137	138	-8.00166E-001	-7.57734E-006	0.00000E+000	-7.99647E-001	4.28467E-004	7	...........	-327.67
	138	139	-8.00163E-001	-7.55852E-006	0.00000E+000	-7.99647E-001	4.26266E-004	7	...........	-327.67
	139	140	-8.00154E-001	-7.54211E-006	0.00000E+000	-7.99647E-001	4.26749E-004	7	...........	-327.67
	140	141	-8.00150E-001	-7.52924E-006	0.00000E+000	-7.99647E-001	4.27900E-004	7	...........	-327.67
	141	142	-8.00160E-001	-7.50383E-006	0.00000E+000	-7.99647E-001	4.23581E-004	7	...........	-327.67
	142	143	-8.00158E-001	-7.48802E-006	0.00000E+000	-7.99647E-001	4.27950E-004	7	...........	-327.67
	143	144	-8.00164E-001	-7.46413E-006	0.00000E+000	-7.99647E-001	4.26399E-004	7	...........	-327.67
	144	145	-8.00161E-001	-7.43498E-006	0.00000E+000	-7.99647E-001	4.24465E-004	7	...........	-327.67
	145	146	-8.00161E-001	-7.40603E-006	0.00000E+000	-7.99647E-001	4.25682E-004	7	...........	-327.67
	146	147	-8.00163E-001	-7.38327E-006	0.00000E+000	-7.99647E-001	4.26399E-004	7	...........	-327.67
	147	148	-8.00165E-001	-7.36192E-006	0.00000E+000	-7.99647E-001	4.24715E-004	7	...........	-327.67
	148	149	-8.00161E-001	-7.34708E-006	0.00000E+000	-7.99647E-001	4.28834E-004	7	...........	-327.67
	149	150	-8.00167E-001	-7.33042E-006	0.00000E+000	-7.99647E-001	4.27416E-004	7	...........	-327.67
	150	151	-8.00165E-001	-7.31775E-006	0.00000E+000	-7.99647E-001	4.27583E-004	7	...........	-327.67
	151	152	-8.00166E-001	-7.29860E-006	0.00000E+000	-7.99647E-001	4.25499E-004	7	...........	-327.67
	152	153	-8.00161E-001	-7.28752E-006	0.00000E+000	-7.99647E-001	4.24515E-004	7	...........	-327.67
	153	154	-8.00163E-001	-7.26838E-006	0.00000E+000	-7.99647E-001	4.25782E-004	7	...........	-327.67
	154	155	-8.00158E-001	-7.25583E-006	0.00000E+000	-7.99647E-001	4.25949E-004	7	...........	-327.67
	155	156	-8.00164E-001	-7.24194E-006	0.00000E+000	-7.99647E-001	4.24214E-004	7	...........	-327.67
	156	157	-8.00168E-001	-7.23535E-006	0.00000E+000	-7.99647E-001	4.24465E-004	7	...........	-327.67
	157	158	-8.00153E-001	-7.21654E-006	0.00000E+000	-7.99647E-001	4.25298E-004	7	...........	-327.67
	158	159	-8.00151E-001	-7.20688E-006	0.00000E+000	-7.99647E-001	4.26883E-004	7	...........	-327.67
	159	160	-8.00160E-001	-7.19353E-006	0.00000E+000	-7.99647E-001	4.26966E-004	7	...........	-327.67
	160	161	-8.00154E-001	-7.19076E-006	0.00000E+000	-7.99647E-001	4.26366E-004	7	...........	-327.67
	161	162	-8.00156E-001	-7.16952E-006	0.00000E+000	-7.99647E-001	4.26649E-004	7	...........	-327.67
	162	163	-8.00152E-001	-7.15152E-006	0.00000E+000	-7.99647E-001	4.27216E-004	7	...........	-327.67
	163	164	-8.00164E-001	-7.14074E-006	0.00000E+000	-7.99647E-001	4.24231E-004	7	...........	-327.67
	164	165	-8.00157E-001	-7.12320E-006	0.00000E+000	-7.99647E-001	4.25632E-004	7	...........	-327.67
	165	166	-8.00162E-001	-7.10615E-006	0.00000E+000	-7.99647E-001	4.25615E-004	7	...........	-327.67
	166	167	-8.00162E-001	-7.09429E-006	0.00000E+000	-7.99647E-001	4.26032E-004	7	...........	-327.67
	167	168	-8.00159E-001	-7.07675E-006	0.00000E+000	-7.99647E-001	4.24298E-004	7	...........	-327.67
	168	169	-8.00171E-001	-7.06522E-006	0.00000E+000	-7.99647E-001	4.25565E-004	7	...........	-327.67
	169	170	-8.00166E-001	-7.04926E-006	0.00000E+000	-7.99647E-001	4.24265E-004	7	...........	-327.67
	170	171	-8.00156E-001	-7.03020E-006	0.00000E+000	-7.99647E-001	4.24214E-004	7	...........	-327.67
	171	172	-8.00160E-001	-7.01550E-006	0.00000E+000	-7.99647E-001	4.25499E-004	7	...........	-327.67
	172	173	-8.00172E-001	-6.99859E-006	0.00000E+000	-7.99647E-001	4.25315E-004	7	...........	-327.67
	173	174	-8.00157E-001	-6.99088E-006	0.00000E+000	-7.99647E-001	4.27950E-004	7	...........	-327.67
	174	175	-8.00171E-001	-6.98047E-006	0.00000E+000	-7.99647E-001	4.26116E-004	7	...........	-327.67
	175	176	-8.00167E-001	-6.96354E-006	0.00000E+000	-7.99647E-001	4.24998E-004	7	...........	-327.67
	176	177	-8.00171E-001	-6.95830E-006	0.00000E+000	-7.99647E-001	4.23864E-004	7	...........	-327.67
	177	178	-8.00168E-001	-6.95033E-006	0.00000E+000	-7.99647E-001	4.26232E-004	7	...........	-327.67
	178	179	-8.00163E-001	-6.93611E-006	0.00000E+000	-7.99647E-001	4.26182E-004	7	...........	-327.67
	179	180	-8.00168E-001	-6.91842E-006	0.00000E+000	-7.99647E-001	4.26599E-004	7	...........	-327.67