File: Electrochemical test/Mo-Ar/3/POTDYN.DTA
EXPLAIN
TAG	POTENTIODYNAMIC
TITLE	LABEL	Potentiodynamic Scan	Test Identifier
DATE	LABEL	2024/12/20	Date
TIME	LABEL	18:59:16	Time
NOTES	NOTES	1	Notes...

PSTAT	PSTAT	REF620-49029	Potentiostat
VINIT	POTEN	-2.50000E-001	T	Initial E (V)
VFINAL	POTEN	5.00000E-001	T	Final E (V)
SCANRATE	QUANT	1.60000E-001	Scan Rate (mV/s)
SAMPLETIME	QUANT	1.00000E+000	Sample Period (s)
AREA	QUANT	1.00000E+000	Sample Area (cm^2)
DENSITY	QUANT	7.87000E+000	Density (g/cm^3)
EQUIV	QUANT	2.79200E+001	Equiv. Wt
IRCOMP	TOGGLE	F	IR Comp
EOC	QUANT	-0.1465033	Open Circuit (V)
ELECTRODETYPE	SELECTOR	0	Electrode Type
STRIPPING	TOGGLE	F	Used for Stripping
SEQUENCER	TOGGLE	TRUE	Run as Sequence
PSTATMODEL	IQUANT	87	Pstat Model
PSTATSECTION	LABEL	REF620-49029	Pstat Section
PSTATSERIALNO	LABEL	49029	Pstat Serial Number
CTRLMODE	IQUANT	1	Control Mode
ELECTROMETER	IQUANT	0	RE=0 or CS=1
IESTAB	IQUANT	2	I/E Stability
CASPEED	IQUANT	4	Control Amp Speed
CONVENTION	IQUANT	1	Current Convention
ICHRANGE	IQUANT	2	Ich Range
ICHRANGEMODE	TOGGLE	T	Ich Auto Range
ICHOFFSETENABLE	TOGGLE	F	Ich Offset Enable
ICHOFFSET	QUANT	0	Ich Offset (V)
ICHFILTER	IQUANT	3	Ich Filter
VCHRANGE	IQUANT	3	Vch Range
VCHRANGEMODE	TOGGLE	T	Vch Auto Range
VCHOFFSETENABLE	TOGGLE	F	Vch Offset Enable
VCHOFFSET	QUANT	0	Vch Offset (V)
VCHFILTER	IQUANT	3	Vch Filter
ACHRANGE	IQUANT	2	Ach Range
ACHOFFSETENABLE	TOGGLE	F	Ach Offset Enable
ACHOFFSET	QUANT	0	Ach Offset (V)
ACHFILTER	IQUANT	1	Ach Filter
IERANGELOWERLIMIT	IQUANT	4	I/E Range Lower Limit
IERANGEMODE	TOGGLE	T	I/E AutoRange
IERANGE	IQUANT	10	I/E Range
POSFEEDENABLE	TOGGLE	F	Positive Feedback IR Comp
POSFEEDRESISTANCE	QUANT	0	Positive Feedback Resistance (ohm)
ACHSELECT	IQUANT	0	Ach Select
SENSECABLEID	IQUANT	7	Sense Cable ID
PWRCABLEID	IQUANT	7	Power Cable ID
DCCALDATE	LABEL	3/28/2024	DC Calibration Date
ACCALDATE	LABEL	6/22/2023	AC Calibration Date
THERMOSELECT	IQUANT	1	Thermo Select
FRAMEWORKVERSION	LABEL	7.10.3	Framework Version
INSTRUMENTVERSION	LABEL	4.91	Instrument Version
COMMVERSION	LABEL	5.10	Communications Version
CPUPLDVERSION	LABEL	6.00	CPU PLD Version
CTRLPLDVERSION	LABEL	7.10	CTRL PLD Version
PSTATPLDVERSION	LABEL	8.13	PSTAT PLD Version
CURVE	TABLE	4688
	Pt	T	Vf	Im	Vu	Sig	Ach	IERange	Over	Temp
	#	s	V vs. Ref.	A	V	V	V	#	bits	deg C
	0	1	-3.96796E-001	-1.83548E-006	0.00000E+000	-3.96465E-001	4.82282E-004	6	...........	-327.67
	10	11	-3.94959E-001	-1.68963E-006	0.00000E+000	-3.94865E-001	4.85184E-004	6	...........	-327.67
	20	21	-3.93362E-001	-1.57324E-006	0.00000E+000	-3.93265E-001	4.83350E-004	6	...........	-327.67
	30	31	-3.91774E-001	-1.48457E-006	0.00000E+000	-3.91665E-001	4.31369E-004	6	...........	-327.67
	40	41	-3.90168E-001	-1.41237E-006	0.00000E+000	-3.90066E-001	4.30351E-004	6	...........	-327.67
	50	51	-3.88580E-001	-1.35120E-006	0.00000E+000	-3.88466E-001	4.34437E-004	6	...........	-327.67
	60	61	-3.86981E-001	-1.29720E-006	0.00000E+000	-3.86866E-001	4.32303E-004	6	...........	-327.67
	70	71	-3.85381E-001	-1.25380E-006	0.00000E+000	-3.85266E-001	4.28767E-004	6	...........	-327.67
	80	81	-3.83779E-001	-1.21030E-006	0.00000E+000	-3.83666E-001	4.28817E-004	6	...........	-327.67
	90	91	-3.82173E-001	-1.18579E-006	0.00000E+000	-3.82066E-001	4.31402E-004	6	...........	-327.67
	100	101	-3.80581E-001	-1.13565E-006	0.00000E+000	-3.80466E-001	4.30552E-004	6	...........	-327.67
	110	111	-3.78992E-001	-1.09708E-006	0.00000E+000	-3.78866E-001	4.32269E-004	6	...........	-327.67
	120	121	-3.77407E-001	-1.05659E-006	0.00000E+000	-3.77266E-001	4.30401E-004	6	...........	-327.67
	130	131	-3.75795E-001	-1.01677E-006	0.00000E+000	-3.75666E-001	4.32019E-004	6	...........	-327.67
	140	141	-3.74208E-001	-9.78572E-007	0.00000E+000	-3.74067E-001	4.29734E-004	6	...........	-327.67
	150	151	-3.72598E-001	-9.42494E-007	0.00000E+000	-3.72467E-001	4.33637E-004	6	...........	-327.67
	160	161	-3.70997E-001	-9.07494E-007	0.00000E+000	-3.70867E-001	4.34287E-004	6	...........	-327.67
	170	171	-3.69399E-001	-8.74252E-007	0.00000E+000	-3.69267E-001	4.31069E-004	6	...........	-327.67
	180	181	-3.67804E-001	-8.42225E-007	0.00000E+000	-3.67667E-001	4.33420E-004	6	...........	-327.67
	190	191	-3.66203E-001	-8.10960E-007	0.00000E+000	-3.66068E-001	4.31102E-004	6	...........	-327.67
	200	201	-3.64610E-001	-7.82346E-007	0.00000E+000	-3.64468E-001	4.32503E-004	6	...........	-327.67
	210	211	-3.63008E-001	-7.53114E-007	0.00000E+000	-3.62868E-001	4.30685E-004	6	...........	-327.67
	220	221	-3.61401E-001	-7.24852E-007	0.00000E+000	-3.61268E-001	4.29101E-004	6	...........	-327.67
	230	231	-3.59798E-001	-6.97700E-007	0.00000E+000	-3.59668E-001	4.29918E-004	6	...........	-327.67
	240	241	-3.58212E-001	-6.73765E-007	0.00000E+000	-3.58069E-001	4.30185E-004	6	...........	-327.67
	250	251	-3.56607E-001	-6.50162E-007	0.00000E+000	-3.56469E-001	4.30068E-004	6	...........	-327.67
	260	261	-3.55000E-001	-6.25899E-007	0.00000E+000	-3.54869E-001	4.29935E-004	6	...........	-327.67
	270	271	-3.53412E-001	-6.00230E-007	0.00000E+000	-3.53269E-001	4.28984E-004	6	...........	-327.67
	280	281	-3.51807E-001	-5.76406E-007	0.00000E+000	-3.51669E-001	4.29651E-004	6	...........	-327.67
	290	291	-3.50211E-001	-5.54233E-007	0.00000E+000	-3.50070E-001	4.31085E-004	6	...........	-327.67
	300	301	-3.48606E-001	-5.32016E-007	0.00000E+000	-3.48470E-001	4.30135E-004	6	...........	-327.67
	310	311	-3.47015E-001	-5.11153E-007	0.00000E+000	-3.46870E-001	4.27566E-004	6	...........	-327.67
	320	321	-3.45404E-001	-4.92066E-007	0.00000E+000	-3.45270E-001	4.28650E-004	6	...........	-327.67
	330	331	-3.43566E-001	-4.71947E-007	0.00000E+000	-3.43645E-001	4.29117E-004	5	...........	-327.67
	340	341	-3.41992E-001	-4.53811E-007	0.00000E+000	-3.42045E-001	4.30702E-004	5	...........	-327.67
	350	351	-3.40401E-001	-4.37651E-007	0.00000E+000	-3.40445E-001	4.31035E-004	5	...........	-327.67
	360	361	-3.38814E-001	-4.21445E-007	0.00000E+000	-3.38845E-001	4.28384E-004	5	...........	-327.67
	370	371	-3.37208E-001	-4.06500E-007	0.00000E+000	-3.37245E-001	4.30618E-004	5	...........	-327.67
	380	381	-3.35624E-001	-3.90224E-007	0.00000E+000	-3.35645E-001	4.30335E-004	5	...........	-327.67
	390	391	-3.34022E-001	-3.75324E-007	0.00000E+000	-3.34045E-001	4.31836E-004	5	...........	-327.67
	400	401	-3.32441E-001	-3.61521E-007	0.00000E+000	-3.32445E-001	4.28484E-004	5	...........	-327.67
	410	411	-3.30845E-001	-3.47827E-007	0.00000E+000	-3.30846E-001	4.26382E-004	5	...........	-327.67
	420	421	-3.29260E-001	-3.35722E-007	0.00000E+000	-3.29246E-001	4.30535E-004	5	...........	-327.67
	430	431	-3.27658E-001	-3.22084E-007	0.00000E+000	-3.27646E-001	4.29534E-004	5	...........	-327.67
	440	441	-3.26074E-001	-3.11262E-007	0.00000E+000	-3.26046E-001	4.30835E-004	5	...........	-327.67
	450	451	-3.24482E-001	-2.98827E-007	0.00000E+000	-3.24447E-001	4.29251E-004	5	...........	-327.67
	460	461	-3.22874E-001	-2.88619E-007	0.00000E+000	-3.22847E-001	4.28884E-004	5	...........	-327.67
	470	471	-3.21281E-001	-2.78202E-007	0.00000E+000	-3.21247E-001	4.27983E-004	5	...........	-327.67
	480	481	-3.19688E-001	-2.68290E-007	0.00000E+000	-3.19647E-001	4.27283E-004	5	...........	-327.67
	490	491	-3.18096E-001	-2.59451E-007	0.00000E+000	-3.18048E-001	4.29734E-004	5	...........	-327.67
	500	501	-3.16505E-001	-2.51399E-007	0.00000E+000	-3.16448E-001	4.29301E-004	5	...........	-327.67
	510	511	-3.14897E-001	-2.42331E-007	0.00000E+000	-3.14848E-001	4.30535E-004	5	...........	-327.67
	520	521	-3.13301E-001	-2.34932E-007	0.00000E+000	-3.13248E-001	4.29318E-004	5	...........	-327.67
	530	531	-3.11704E-001	-2.27387E-007	0.00000E+000	-3.11648E-001	4.28217E-004	5	...........	-327.67
	540	541	-3.10109E-001	-2.20470E-007	0.00000E+000	-3.10048E-001	4.30502E-004	5	...........	-327.67
	550	551	-3.08507E-001	-2.13348E-007	0.00000E+000	-3.08448E-001	4.28067E-004	5	...........	-327.67
	560	561	-3.06928E-001	-2.07653E-007	0.00000E+000	-3.06848E-001	4.28534E-004	5	...........	-327.67
	570	571	-3.05315E-001	-2.00446E-007	0.00000E+000	-3.05248E-001	4.27166E-004	5	...........	-327.67
	580	581	-3.03716E-001	-1.95185E-007	0.00000E+000	-3.03649E-001	4.28984E-004	5	...........	-327.67
	590	591	-3.02106E-001	-1.89173E-007	0.00000E+000	-3.02049E-001	4.30568E-004	5	...........	-327.67
	600	601	-3.00512E-001	-1.84200E-007	0.00000E+000	-3.00449E-001	4.28133E-004	5	...........	-327.67
	610	611	-2.98923E-001	-1.79293E-007	0.00000E+000	-2.98849E-001	4.30118E-004	5	...........	-327.67
	620	621	-2.97331E-001	-1.73640E-007	0.00000E+000	-2.97249E-001	4.28217E-004	5	...........	-327.67
	630	631	-2.95725E-001	-1.68980E-007	0.00000E+000	-2.95650E-001	4.28500E-004	5	...........	-327.67
	640	641	-2.94129E-001	-1.64517E-007	0.00000E+000	-2.94050E-001	4.27883E-004	5	...........	-327.67
	650	651	-2.92531E-001	-1.60258E-007	0.00000E+000	-2.92450E-001	4.30135E-004	5	...........	-327.67
	660	661	-2.90934E-001	-1.56440E-007	0.00000E+000	-2.90850E-001	4.29217E-004	5	...........	-327.67
	670	671	-2.89326E-001	-1.52649E-007	0.00000E+000	-2.89251E-001	4.28917E-004	5	...........	-327.67
	680	681	-2.87732E-001	-1.47983E-007	0.00000E+000	-2.87651E-001	4.30718E-004	5	...........	-327.67
	690	691	-2.86140E-001	-1.44981E-007	0.00000E+000	-2.86051E-001	4.30451E-004	5	...........	-327.67
	700	701	-2.84539E-001	-1.40318E-007	0.00000E+000	-2.84451E-001	4.26516E-004	5	...........	-327.67
	710	711	-2.82941E-001	-1.36655E-007	0.00000E+000	-2.82851E-001	4.29985E-004	5	...........	-327.67
	720	721	-2.81341E-001	-1.34029E-007	0.00000E+000	-2.81252E-001	4.29884E-004	5	...........	-327.67
	730	731	-2.79740E-001	-1.30293E-007	0.00000E+000	-2.79652E-001	4.29451E-004	5	...........	-327.67
	740	741	-2.78145E-001	-1.27557E-007	0.00000E+000	-2.78052E-001	4.28584E-004	5	...........	-327.67
	750	751	-2.76556E-001	-1.24284E-007	0.00000E+000	-2.76452E-001	4.29518E-004	5	...........	-327.67
	760	761	-2.74953E-001	-1.21896E-007	0.00000E+000	-2.74852E-001	4.29484E-004	5	...........	-327.67
	770	771	-2.73357E-001	-1.19155E-007	0.00000E+000	-2.73252E-001	4.27967E-004	5	...........	-327.67
	780	781	-2.71753E-001	-1.16154E-007	0.00000E+000	-2.71652E-001	4.29818E-004	5	...........	-327.67
	790	791	-2.70170E-001	-1.14502E-007	0.00000E+000	-2.70052E-001	4.30752E-004	5	...........	-327.67
	800	801	-2.68563E-001	-1.11955E-007	0.00000E+000	-2.68453E-001	4.30518E-004	5	...........	-327.67
	810	811	-2.66965E-001	-1.08896E-007	0.00000E+000	-2.66853E-001	4.30251E-004	5	...........	-327.67
	820	821	-2.65361E-001	-1.07265E-007	0.00000E+000	-2.65253E-001	4.28984E-004	5	...........	-327.67
	830	831	-2.63765E-001	-1.04881E-007	0.00000E+000	-2.63653E-001	4.28033E-004	5	...........	-327.67
	840	841	-2.62164E-001	-1.02195E-007	0.00000E+000	-2.62053E-001	4.30985E-004	5	...........	-327.67
	850	851	-2.60561E-001	-1.00831E-007	0.00000E+000	-2.60454E-001	4.28784E-004	5	...........	-327.67
	860	861	-2.58968E-001	-9.74365E-008	0.00000E+000	-2.58854E-001	4.28534E-004	5	...........	-327.67
	870	871	-2.57373E-001	-9.55978E-008	0.00000E+000	-2.57254E-001	4.30952E-004	5	...........	-327.67
	880	881	-2.55767E-001	-9.35720E-008	0.00000E+000	-2.55654E-001	4.31085E-004	5	...........	-327.67
	890	891	-2.54168E-001	-9.09867E-008	0.00000E+000	-2.54055E-001	4.30768E-004	5	...........	-327.67
	900	901	-2.52580E-001	-8.92905E-008	0.00000E+000	-2.52455E-001	4.30585E-004	5	...........	-327.67
	910	911	-2.50975E-001	-8.75504E-008	0.00000E+000	-2.50855E-001	4.27733E-004	5	...........	-327.67
	920	921	-2.49373E-001	-8.51990E-008	0.00000E+000	-2.49255E-001	4.29101E-004	5	...........	-327.67
	930	931	-2.47775E-001	-8.27801E-008	0.00000E+000	-2.47655E-001	4.30985E-004	5	...........	-327.67
	940	941	-2.46175E-001	-8.10157E-008	0.00000E+000	-2.46055E-001	4.28450E-004	5	...........	-327.67
	950	951	-2.44578E-001	-7.88575E-008	0.00000E+000	-2.44455E-001	4.30552E-004	5	...........	-327.67
	960	961	-2.42918E-001	-7.71487E-008	0.00000E+000	-2.42855E-001	4.31652E-004	5	...........	-327.67
	970	971	-2.41320E-001	-7.49796E-008	0.00000E+000	-2.41255E-001	4.28784E-004	5	...........	-327.67
	980	981	-2.39710E-001	-7.33651E-008	0.00000E+000	-2.39656E-001	4.29368E-004	5	...........	-327.67
	990	991	-2.38118E-001	-7.12139E-008	0.00000E+000	-2.38056E-001	4.29501E-004	5	...........	-327.67
	1000	1001	-2.36532E-001	-7.00954E-008	0.00000E+000	-2.36456E-001	4.29584E-004	5	...........	-327.67
	1010	1011	-2.34925E-001	-6.75422E-008	0.00000E+000	-2.34856E-001	4.27683E-004	5	...........	-327.67
	1020	1021	-2.33329E-001	-6.61488E-008	0.00000E+000	-2.33257E-001	4.30251E-004	5	...........	-327.67
	1030	1031	-2.31720E-001	-6.45378E-008	0.00000E+000	-2.31657E-001	4.28834E-004	5	...........	-327.67
	1040	1041	-2.30130E-001	-6.24967E-008	0.00000E+000	-2.30057E-001	4.29534E-004	5	...........	-327.67
	1050	1051	-2.28520E-001	-6.11304E-008	0.00000E+000	-2.28457E-001	4.30435E-004	5	...........	-327.67
	1060	1061	-2.26922E-001	-5.96556E-008	0.00000E+000	-2.26857E-001	4.28984E-004	5	...........	-327.67
	1070	1071	-2.25329E-001	-5.77257E-008	0.00000E+000	-2.25258E-001	4.29718E-004	5	...........	-327.67
	1080	1081	-2.23728E-001	-5.57290E-008	0.00000E+000	-2.23658E-001	4.31452E-004	5	...........	-327.67
	1090	1091	-2.22116E-001	-5.42631E-008	0.00000E+000	-2.22058E-001	4.33320E-004	5	...........	-327.67
	1100	1101	-2.20523E-001	-5.29145E-008	0.00000E+000	-2.20458E-001	4.33620E-004	5	...........	-327.67
	1110	1111	-2.18914E-001	-5.10721E-008	0.00000E+000	-2.18859E-001	4.33270E-004	5	...........	-327.67
	1120	1121	-2.17315E-001	-4.90293E-008	0.00000E+000	-2.17259E-001	4.28784E-004	5	...........	-327.67
	1130	1131	-2.15492E-001	-4.76891E-008	0.00000E+000	-2.15637E-001	4.30952E-004	4	...........	-327.67
	1140	1141	-2.13886E-001	-4.59395E-008	0.00000E+000	-2.14037E-001	4.31636E-004	4	...........	-327.67
	1150	1151	-2.12295E-001	-4.43498E-008	0.00000E+000	-2.12437E-001	4.32052E-004	4	...........	-327.67
	1160	1161	-2.10702E-001	-4.29419E-008	0.00000E+000	-2.10837E-001	4.28367E-004	4	...........	-327.67
	1170	1171	-2.09107E-001	-4.15672E-008	0.00000E+000	-2.09238E-001	4.30418E-004	4	...........	-327.67
	1180	1181	-2.07514E-001	-3.97664E-008	0.00000E+000	-2.07638E-001	4.29568E-004	4	...........	-327.67
	1190	1191	-2.05920E-001	-3.81825E-008	0.00000E+000	-2.06038E-001	4.30735E-004	4	...........	-327.67
	1200	1201	-2.04341E-001	-3.69273E-008	0.00000E+000	-2.04438E-001	4.29134E-004	4	...........	-327.67
	1210	1211	-2.02742E-001	-3.49691E-008	0.00000E+000	-2.02838E-001	4.29251E-004	4	...........	-327.67
	1220	1221	-2.01156E-001	-3.37509E-008	0.00000E+000	-2.01239E-001	4.32419E-004	4	...........	-327.67
	1230	1231	-1.99569E-001	-3.22112E-008	0.00000E+000	-1.99639E-001	4.30918E-004	4	...........	-327.67
	1240	1241	-1.97971E-001	-3.04143E-008	0.00000E+000	-1.98039E-001	4.30201E-004	4	...........	-327.67
	1250	1251	-1.96376E-001	-2.90558E-008	0.00000E+000	-1.96439E-001	4.31002E-004	4	...........	-327.67
	1260	1261	-1.94796E-001	-2.76531E-008	0.00000E+000	-1.94840E-001	4.29284E-004	4	...........	-327.67
	1270	1271	-1.93196E-001	-2.60532E-008	0.00000E+000	-1.93240E-001	4.32970E-004	4	...........	-327.67
	1280	1281	-1.91597E-001	-2.43992E-008	0.00000E+000	-1.91640E-001	4.31269E-004	4	...........	-327.67
	1290	1291	-1.90011E-001	-2.28850E-008	0.00000E+000	-1.90040E-001	4.30268E-004	4	...........	-327.67
	1300	1301	-1.88418E-001	-2.11219E-008	0.00000E+000	-1.88441E-001	4.28434E-004	4	...........	-327.67
	1310	1311	-1.86826E-001	-1.95345E-008	0.00000E+000	-1.86841E-001	4.31652E-004	4	...........	-327.67
	1320	1321	-1.85229E-001	-1.83286E-008	0.00000E+000	-1.85241E-001	4.29768E-004	4	...........	-327.67
	1330	1331	-1.83638E-001	-1.67180E-008	0.00000E+000	-1.83641E-001	4.30301E-004	4	...........	-327.67
	1340	1341	-1.82045E-001	-1.51313E-008	0.00000E+000	-1.82041E-001	4.30251E-004	4	...........	-327.67
	1350	1351	-1.80462E-001	-1.35913E-008	0.00000E+000	-1.80441E-001	4.32253E-004	4	...........	-327.67
	1360	1361	-1.78863E-001	-1.20942E-008	0.00000E+000	-1.78841E-001	4.28901E-004	4	...........	-327.67
	1370	1371	-1.77271E-001	-1.01752E-008	0.00000E+000	-1.77242E-001	4.29651E-004	4	...........	-327.67
	1380	1381	-1.75677E-001	-8.73754E-009	0.00000E+000	-1.75642E-001	4.32636E-004	4	...........	-327.67
	1390	1391	-1.74087E-001	-7.28881E-009	0.00000E+000	-1.74042E-001	4.31952E-004	4	...........	-327.67
	1400	1401	-1.72491E-001	-5.33207E-009	0.00000E+000	-1.72442E-001	4.31919E-004	4	...........	-327.67
	1410	1411	-1.70906E-001	-3.92391E-009	0.00000E+000	-1.70843E-001	4.29751E-004	4	...........	-327.67
	1420	1421	-1.69312E-001	-2.06502E-009	0.00000E+000	-1.69243E-001	4.32536E-004	4	...........	-327.67
	1430	1431	-1.67712E-001	-7.55858E-011	0.00000E+000	-1.67643E-001	4.32236E-004	4	...........	-327.67
	1440	1441	-1.66128E-001	1.33426E-009	0.00000E+000	-1.66043E-001	4.29818E-004	4	...........	-327.67
	1450	1451	-1.64541E-001	3.03728E-009	0.00000E+000	-1.64444E-001	4.29968E-004	4	...........	-327.67
	1460	1461	-1.62938E-001	4.85901E-009	0.00000E+000	-1.62844E-001	4.30218E-004	4	...........	-327.67
	1470	1471	-1.61353E-001	6.72751E-009	0.00000E+000	-1.61244E-001	4.32836E-004	4	...........	-327.67
	1480	1481	-1.59779E-001	7.89102E-009	0.00000E+000	-1.59644E-001	4.30685E-004	4	...........	-327.67
	1490	1491	-1.58177E-001	9.85733E-009	0.00000E+000	-1.58045E-001	4.30001E-004	4	...........	-327.67
	1500	1501	-1.56586E-001	1.17465E-008	0.00000E+000	-1.56445E-001	4.29918E-004	4	...........	-327.67
	1510	1511	-1.55009E-001	1.35948E-008	0.00000E+000	-1.54845E-001	4.31902E-004	4	...........	-327.67
	1520	1521	-1.53413E-001	1.52669E-008	0.00000E+000	-1.53245E-001	4.29084E-004	4	...........	-327.67
	1530	1531	-1.51820E-001	1.73302E-008	0.00000E+000	-1.51645E-001	4.31319E-004	4	...........	-327.67
	1540	1541	-1.50218E-001	1.91291E-008	0.00000E+000	-1.50045E-001	4.34404E-004	4	...........	-327.67
	1550	1551	-1.48627E-001	2.09898E-008	0.00000E+000	-1.48445E-001	4.32803E-004	4	...........	-327.67
	1560	1561	-1.47048E-001	2.31001E-008	0.00000E+000	-1.46846E-001	4.30502E-004	4	...........	-327.67
	1570	1571	-1.45449E-001	2.48638E-008	0.00000E+000	-1.45246E-001	4.29167E-004	4	...........	-327.67
	1580	1581	-1.43866E-001	2.69637E-008	0.00000E+000	-1.43646E-001	4.30935E-004	4	...........	-327.67
	1590	1591	-1.42280E-001	2.88834E-008	0.00000E+000	-1.42046E-001	4.32219E-004	4	...........	-327.67
	1600	1601	-1.40690E-001	3.08902E-008	0.00000E+000	-1.40447E-001	4.30268E-004	4	...........	-327.67
	1610	1611	-1.39092E-001	3.34651E-008	0.00000E+000	-1.38847E-001	4.29351E-004	4	...........	-327.67
	1620	1621	-1.37514E-001	3.51818E-008	0.00000E+000	-1.37247E-001	4.30518E-004	4	...........	-327.67
	1630	1631	-1.35913E-001	3.75984E-008	0.00000E+000	-1.35647E-001	4.29918E-004	4	...........	-327.67
	1640	1641	-1.34327E-001	3.98495E-008	0.00000E+000	-1.34048E-001	4.27767E-004	4	...........	-327.67
	1650	1651	-1.32736E-001	4.23072E-008	0.00000E+000	-1.32448E-001	4.33487E-004	4	...........	-327.67
	1660	1661	-1.31153E-001	4.41607E-008	0.00000E+000	-1.30848E-001	4.29284E-004	4	...........	-327.67
	1670	1671	-1.29559E-001	4.67663E-008	0.00000E+000	-1.29248E-001	4.30401E-004	4	...........	-327.67
	1680	1681	-1.27975E-001	4.90035E-008	0.00000E+000	-1.27648E-001	4.30718E-004	4	...........	-327.67
	1690	1691	-1.26384E-001	5.11136E-008	0.00000E+000	-1.26048E-001	4.29484E-004	4	...........	-327.67
	1700	1701	-1.24551E-001	5.52648E-008	0.00000E+000	-1.24448E-001	4.28967E-004	5	...........	-327.67
	1710	1711	-1.22970E-001	5.72600E-008	0.00000E+000	-1.22869E-001	4.28584E-004	5	...........	-327.67
	1720	1721	-1.21367E-001	6.05167E-008	0.00000E+000	-1.21269E-001	4.31519E-004	5	...........	-327.67
	1730	1731	-1.19775E-001	6.31166E-008	0.00000E+000	-1.19670E-001	4.31052E-004	5	...........	-327.67
	1740	1741	-1.18175E-001	6.52448E-008	0.00000E+000	-1.18070E-001	4.29301E-004	5	...........	-327.67
	1750	1751	-1.16587E-001	6.83038E-008	0.00000E+000	-1.16470E-001	4.31419E-004	5	...........	-327.67
	1760	1761	-1.14981E-001	7.12484E-008	0.00000E+000	-1.14870E-001	4.30835E-004	5	...........	-327.67
	1770	1771	-1.13389E-001	7.43424E-008	0.00000E+000	-1.13270E-001	4.30468E-004	5	...........	-327.67
	1780	1781	-1.11779E-001	7.83690E-008	0.00000E+000	-1.11670E-001	4.28801E-004	5	...........	-327.67
	1790	1791	-1.10183E-001	8.16448E-008	0.00000E+000	-1.10070E-001	4.31669E-004	5	...........	-327.67
	1800	1801	-1.08579E-001	8.51712E-008	0.00000E+000	-1.08470E-001	4.29751E-004	5	...........	-327.67
	1810	1811	-1.06997E-001	8.84468E-008	0.00000E+000	-1.06870E-001	4.30952E-004	5	...........	-327.67
	1820	1821	-1.05389E-001	9.19164E-008	0.00000E+000	-1.05271E-001	4.29117E-004	5	...........	-327.67
	1830	1831	-1.03793E-001	9.49765E-008	0.00000E+000	-1.03671E-001	4.32219E-004	5	...........	-327.67
	1840	1841	-1.02202E-001	9.86514E-008	0.00000E+000	-1.02071E-001	4.30568E-004	5	...........	-327.67
	1850	1851	-1.00597E-001	1.03257E-007	0.00000E+000	-1.00471E-001	4.31452E-004	5	...........	-327.67
	1860	1861	-9.90027E-002	1.06879E-007	0.00000E+000	-9.88719E-002	4.29751E-004	5	...........	-327.67
	1870	1871	-9.74006E-002	1.10763E-007	0.00000E+000	-9.72719E-002	4.28050E-004	5	...........	-327.67
	1880	1881	-9.58065E-002	1.14808E-007	0.00000E+000	-9.56719E-002	4.29734E-004	5	...........	-327.67
	1890	1891	-9.42052E-002	1.19026E-007	0.00000E+000	-9.40719E-002	4.28767E-004	5	...........	-327.67
	1900	1901	-9.26106E-002	1.23481E-007	0.00000E+000	-9.24719E-002	4.31119E-004	5	...........	-327.67
	1910	1911	-9.10094E-002	1.27762E-007	0.00000E+000	-9.08727E-002	4.30535E-004	5	...........	-327.67
	1920	1921	-8.94120E-002	1.32124E-007	0.00000E+000	-8.92727E-002	4.31135E-004	5	...........	-327.67
	1930	1931	-8.78140E-002	1.35752E-007	0.00000E+000	-8.76727E-002	4.27633E-004	5	...........	-327.67
	1940	1941	-8.62124E-002	1.40976E-007	0.00000E+000	-8.60727E-002	4.30835E-004	5	...........	-327.67
	1950	1951	-8.46169E-002	1.45213E-007	0.00000E+000	-8.44734E-002	4.30151E-004	5	...........	-327.67
	1960	1961	-8.30157E-002	1.50409E-007	0.00000E+000	-8.28734E-002	4.30802E-004	5	...........	-327.67
	1970	1971	-8.14236E-002	1.55712E-007	0.00000E+000	-8.12734E-002	4.29568E-004	5	...........	-327.67
	1980	1981	-7.98276E-002	1.60423E-007	0.00000E+000	-7.96734E-002	4.29651E-004	5	...........	-327.67
	1990	1991	-7.82335E-002	1.65215E-007	0.00000E+000	-7.80734E-002	4.29968E-004	5	...........	-327.67
	2000	2001	-7.66442E-002	1.69802E-007	0.00000E+000	-7.64742E-002	4.32186E-004	5	...........	-327.67
	2010	2011	-7.50335E-002	1.75599E-007	0.00000E+000	-7.48742E-002	4.31752E-004	5	...........	-327.67
	2020	2021	-7.34264E-002	1.80924E-007	0.00000E+000	-7.32742E-002	4.31969E-004	5	...........	-327.67
	2030	2031	-7.18381E-002	1.85874E-007	0.00000E+000	-7.16742E-002	4.28750E-004	5	...........	-327.67
	2040	2041	-7.02409E-002	1.92161E-007	0.00000E+000	-7.00750E-002	4.29584E-004	5	...........	-327.67
	2050	2051	-6.86398E-002	1.97318E-007	0.00000E+000	-6.84750E-002	4.29001E-004	5	...........	-327.67
	2060	2061	-6.70460E-002	2.03789E-007	0.00000E+000	-6.68750E-002	4.29568E-004	5	...........	-327.67
	2070	2071	-6.54451E-002	2.09645E-007	0.00000E+000	-6.52750E-002	4.27917E-004	5	...........	-327.67
	2080	2081	-6.38515E-002	2.16343E-007	0.00000E+000	-6.36750E-002	4.27516E-004	5	...........	-327.67
	2090	2091	-6.22505E-002	2.22262E-007	0.00000E+000	-6.20758E-002	4.30201E-004	5	...........	-327.67
	2100	2101	-6.06535E-002	2.28256E-007	0.00000E+000	-6.04758E-002	4.28700E-004	5	...........	-327.67
	2110	2111	-5.90521E-002	2.35452E-007	0.00000E+000	-5.88758E-002	4.29951E-004	5	...........	-327.67
	2120	2121	-5.74664E-002	2.42085E-007	0.00000E+000	-5.72758E-002	4.29935E-004	5	...........	-327.67
	2130	2131	-5.58649E-002	2.49249E-007	0.00000E+000	-5.56766E-002	4.28851E-004	5	...........	-327.67
	2140	2141	-5.42702E-002	2.56510E-007	0.00000E+000	-5.40766E-002	4.29568E-004	5	...........	-327.67
	2150	2151	-5.26686E-002	2.64368E-007	0.00000E+000	-5.24766E-002	4.31385E-004	5	...........	-327.67
	2160	2161	-5.10735E-002	2.70719E-007	0.00000E+000	-5.08766E-002	4.30385E-004	5	...........	-327.67
	2170	2171	-4.94799E-002	2.77693E-007	0.00000E+000	-4.92773E-002	4.30802E-004	5	...........	-327.67
	2180	2181	-4.78735E-002	2.85859E-007	0.00000E+000	-4.76773E-002	4.30118E-004	5	...........	-327.67
	2190	2191	-4.62756E-002	2.93522E-007	0.00000E+000	-4.60773E-002	4.29167E-004	5	...........	-327.67
	2200	2201	-4.46780E-002	3.01029E-007	0.00000E+000	-4.44773E-002	4.29768E-004	5	...........	-327.67
	2210	2211	-4.30819E-002	3.08264E-007	0.00000E+000	-4.28773E-002	4.30668E-004	5	...........	-327.67
	2220	2221	-4.14854E-002	3.16069E-007	0.00000E+000	-4.12781E-002	4.30201E-004	5	...........	-327.67
	2230	2231	-3.99000E-002	3.24436E-007	0.00000E+000	-3.96781E-002	4.30985E-004	5	...........	-327.67
	2240	2241	-3.83099E-002	3.32744E-007	0.00000E+000	-3.80781E-002	4.30151E-004	5	...........	-327.67
	2250	2251	-3.67068E-002	3.40664E-007	0.00000E+000	-3.64781E-002	4.29901E-004	5	...........	-327.67
	2260	2261	-3.51189E-002	3.48796E-007	0.00000E+000	-3.48789E-002	4.30418E-004	5	...........	-327.67
	2270	2271	-3.35098E-002	3.57464E-007	0.00000E+000	-3.32789E-002	4.29301E-004	5	...........	-327.67
	2280	2281	-3.18981E-002	3.66321E-007	0.00000E+000	-3.16789E-002	4.30552E-004	5	...........	-327.67
	2290	2291	-3.03100E-002	3.74270E-007	0.00000E+000	-3.00789E-002	4.30035E-004	5	...........	-327.67
	2300	2301	-2.87131E-002	3.83629E-007	0.00000E+000	-2.84789E-002	4.29451E-004	5	...........	-327.67
	2310	2311	-2.71113E-002	3.92045E-007	0.00000E+000	-2.68797E-002	4.31569E-004	5	...........	-327.67
	2320	2321	-2.55174E-002	4.00909E-007	0.00000E+000	-2.52797E-002	4.30385E-004	5	...........	-327.67
	2330	2331	-2.39432E-002	4.09396E-007	0.00000E+000	-2.36797E-002	4.31152E-004	5	...........	-327.67
	2340	2341	-2.23354E-002	4.19215E-007	0.00000E+000	-2.20797E-002	4.28267E-004	5	...........	-327.67
	2350	2351	-2.07383E-002	4.28643E-007	0.00000E+000	-2.04805E-002	4.30685E-004	5	...........	-327.67
	2360	2361	-1.91474E-002	4.37582E-007	0.00000E+000	-1.88805E-002	4.30235E-004	5	...........	-327.67
	2370	2371	-1.75528E-002	4.47243E-007	0.00000E+000	-1.72805E-002	4.29618E-004	5	...........	-327.67
	2380	2381	-1.59496E-002	4.57647E-007	0.00000E+000	-1.56805E-002	4.30485E-004	5	...........	-327.67
	2390	2391	-1.43591E-002	4.67476E-007	0.00000E+000	-1.40805E-002	4.28033E-004	5	...........	-327.67
	2400	2401	-1.27579E-002	4.78200E-007	0.00000E+000	-1.24813E-002	4.30585E-004	5	...........	-327.67
	2410	2411	-1.11653E-002	4.87452E-007	0.00000E+000	-1.08813E-002	4.29668E-004	5	...........	-327.67
	2420	2421	-9.58530E-003	4.97184E-007	0.00000E+000	-9.28125E-003	4.30068E-004	5	...........	-327.67
	2430	2431	-7.98947E-003	5.07799E-007	0.00000E+000	-7.68125E-003	4.29985E-004	5	...........	-327.67
	2440	2441	-6.38277E-003	5.17341E-007	0.00000E+000	-6.08203E-003	4.33370E-004	5	...........	-327.67
	2450	2451	-4.78817E-003	5.29104E-007	0.00000E+000	-4.48203E-003	4.29101E-004	5	...........	-327.67
	2460	2461	-2.95795E-003	5.42957E-007	0.00000E+000	-2.90469E-003	4.32136E-004	6	...........	-327.67
	2470	2471	-1.35029E-003	5.55909E-007	0.00000E+000	-1.30469E-003	4.30401E-004	6	...........	-327.67
	2480	2481	2.34309E-004	5.67329E-007	0.00000E+000	2.95309E-004	4.32336E-004	6	...........	-327.67
	2490	2491	1.83690E-003	5.78372E-007	0.00000E+000	1.89531E-003	4.32486E-004	6	...........	-327.67
	2500	2501	3.44008E-003	5.89626E-007	0.00000E+000	3.49531E-003	4.29184E-004	6	...........	-327.67
	2510	2511	5.03497E-003	6.01804E-007	0.00000E+000	5.09453E-003	4.30935E-004	6	...........	-327.67
	2520	2521	6.63441E-003	6.13083E-007	0.00000E+000	6.69453E-003	4.31819E-004	6	...........	-327.67
	2530	2531	8.24033E-003	6.26276E-007	0.00000E+000	8.29453E-003	4.31352E-004	6	...........	-327.67
	2540	2541	9.84155E-003	6.40582E-007	0.00000E+000	9.89453E-003	4.32970E-004	6	...........	-327.67
	2550	2551	1.14405E-002	6.54084E-007	0.00000E+000	1.14945E-002	4.31052E-004	6	...........	-327.67
	2560	2561	1.30376E-002	6.67109E-007	0.00000E+000	1.30937E-002	4.31836E-004	6	...........	-327.67
	2570	2571	1.46422E-002	6.79499E-007	0.00000E+000	1.46937E-002	4.30301E-004	6	...........	-327.67
	2580	2581	1.62505E-002	6.91051E-007	0.00000E+000	1.62937E-002	4.30502E-004	6	...........	-327.67
	2590	2591	1.78345E-002	7.02286E-007	0.00000E+000	1.78937E-002	4.29601E-004	6	...........	-327.67
	2600	2601	1.94522E-002	7.15289E-007	0.00000E+000	1.94937E-002	4.31169E-004	6	...........	-327.67
	2610	2611	2.10434E-002	7.26771E-007	0.00000E+000	2.10930E-002	4.31085E-004	6	...........	-327.67
	2620	2621	2.26597E-002	7.40348E-007	0.00000E+000	2.26930E-002	4.31202E-004	6	...........	-327.67
	2630	2631	2.42546E-002	7.52253E-007	0.00000E+000	2.42930E-002	4.32820E-004	6	...........	-327.67
	2640	2641	2.58477E-002	7.65706E-007	0.00000E+000	2.58930E-002	4.31852E-004	6	...........	-327.67
	2650	2651	2.74220E-002	7.80421E-007	0.00000E+000	2.74930E-002	4.31019E-004	6	...........	-327.67
	2660	2661	2.90203E-002	7.96354E-007	0.00000E+000	2.90922E-002	4.33787E-004	6	...........	-327.67
	2670	2671	3.06202E-002	8.12478E-007	0.00000E+000	3.06922E-002	4.33503E-004	6	...........	-327.67
	2680	2681	3.22266E-002	8.28722E-007	0.00000E+000	3.22922E-002	4.32203E-004	6	...........	-327.67
	2690	2691	3.38181E-002	8.43088E-007	0.00000E+000	3.38922E-002	4.31369E-004	6	...........	-327.67
	2700	2701	3.54196E-002	8.58440E-007	0.00000E+000	3.54922E-002	4.32303E-004	6	...........	-327.67
	2710	2711	3.70178E-002	8.73645E-007	0.00000E+000	3.70914E-002	4.31119E-004	6	...........	-327.67
	2720	2721	3.86144E-002	8.89974E-007	0.00000E+000	3.86914E-002	4.30418E-004	6	...........	-327.67
	2730	2731	4.02149E-002	9.08794E-007	0.00000E+000	4.02914E-002	4.33670E-004	6	...........	-327.67
	2740	2741	4.18077E-002	9.28517E-007	0.00000E+000	4.18914E-002	4.30118E-004	6	...........	-327.67
	2750	2751	4.34149E-002	9.48473E-007	0.00000E+000	4.34906E-002	4.33170E-004	6	...........	-327.67
	2760	2761	4.50185E-002	9.66327E-007	0.00000E+000	4.50906E-002	4.31085E-004	6	...........	-327.67
	2770	2771	4.66027E-002	9.83102E-007	0.00000E+000	4.66906E-002	4.32369E-004	6	...........	-327.67
	2780	2781	4.82149E-002	1.00125E-006	0.00000E+000	4.82906E-002	4.32770E-004	6	...........	-327.67
	2790	2791	4.98155E-002	1.02010E-006	0.00000E+000	4.98906E-002	4.30902E-004	6	...........	-327.67
	2800	2801	5.14200E-002	1.03917E-006	0.00000E+000	5.14898E-002	4.32719E-004	6	...........	-327.67
	2810	2811	5.30142E-002	1.05796E-006	0.00000E+000	5.30898E-002	4.30151E-004	6	...........	-327.67
	2820	2821	5.46171E-002	1.07745E-006	0.00000E+000	5.46898E-002	4.31736E-004	6	...........	-327.67
	2830	2831	5.62114E-002	1.09583E-006	0.00000E+000	5.62898E-002	4.29284E-004	6	...........	-327.67
	2840	2841	5.78102E-002	1.11442E-006	0.00000E+000	5.78898E-002	4.32019E-004	6	...........	-327.67
	2850	2851	5.94145E-002	1.13265E-006	0.00000E+000	5.94891E-002	4.31719E-004	6	...........	-327.67
	2860	2861	6.10134E-002	1.15062E-006	0.00000E+000	6.10891E-002	4.31886E-004	6	...........	-327.67
	2870	2871	6.26149E-002	1.16888E-006	0.00000E+000	6.26891E-002	4.29134E-004	6	...........	-327.67
	2880	2881	6.42157E-002	1.18715E-006	0.00000E+000	6.42891E-002	4.31552E-004	6	...........	-327.67
	2890	2891	6.58066E-002	1.20607E-006	0.00000E+000	6.58891E-002	4.31752E-004	6	...........	-327.67
	2900	2901	6.74018E-002	1.22446E-006	0.00000E+000	6.74883E-002	4.30485E-004	6	...........	-327.67
	2910	2911	6.90152E-002	1.24172E-006	0.00000E+000	6.90883E-002	4.31335E-004	6	...........	-327.67
	2920	2921	7.06002E-002	1.25886E-006	0.00000E+000	7.06883E-002	4.30485E-004	6	...........	-327.67
	2930	2931	7.22024E-002	1.27571E-006	0.00000E+000	7.22883E-002	4.28100E-004	6	...........	-327.67
	2940	2941	7.38038E-002	1.29275E-006	0.00000E+000	7.38883E-002	4.31102E-004	6	...........	-327.67
	2950	2951	7.53940E-002	1.30912E-006	0.00000E+000	7.54875E-002	4.32903E-004	6	...........	-327.67
	2960	2961	7.69909E-002	1.32698E-006	0.00000E+000	7.70875E-002	4.33270E-004	6	...........	-327.67
	2970	2971	7.86063E-002	1.34504E-006	0.00000E+000	7.86875E-002	4.30468E-004	6	...........	-327.67
	2980	2981	8.01993E-002	1.36015E-006	0.00000E+000	8.02875E-002	4.32203E-004	6	...........	-327.67
	2990	2991	8.17893E-002	1.37974E-006	0.00000E+000	8.18875E-002	4.33653E-004	6	...........	-327.67
	3000	3001	8.33885E-002	1.39983E-006	0.00000E+000	8.34867E-002	4.31836E-004	6	...........	-327.67
	3010	3011	8.49940E-002	1.42244E-006	0.00000E+000	8.50867E-002	4.30285E-004	6	...........	-327.67
	3020	3021	8.65890E-002	1.44170E-006	0.00000E+000	8.66867E-002	4.33053E-004	6	...........	-327.67
	3030	3031	8.81778E-002	1.46028E-006	0.00000E+000	8.82867E-002	4.32870E-004	6	...........	-327.67
	3040	3041	8.97797E-002	1.47635E-006	0.00000E+000	8.98859E-002	4.32903E-004	6	...........	-327.67
	3050	3051	9.13858E-002	1.49203E-006	0.00000E+000	9.14859E-002	4.31285E-004	6	...........	-327.67
	3060	3061	9.29807E-002	1.50735E-006	0.00000E+000	9.30859E-002	4.30085E-004	6	...........	-327.67
	3070	3071	9.45772E-002	1.52225E-006	0.00000E+000	9.46859E-002	4.30218E-004	6	...........	-327.67
	3080	3081	9.61737E-002	1.53673E-006	0.00000E+000	9.62859E-002	4.31119E-004	6	...........	-327.67
	3090	3091	9.77652E-002	1.55133E-006	0.00000E+000	9.78852E-002	4.31502E-004	6	...........	-327.67
	3100	3101	9.93752E-002	1.56448E-006	0.00000E+000	9.94852E-002	4.32169E-004	6	...........	-327.67
	3110	3111	1.00981E-001	1.57837E-006	0.00000E+000	1.01085E-001	4.29034E-004	6	...........	-327.67
	3120	3121	1.02570E-001	1.59216E-006	0.00000E+000	1.02685E-001	4.29001E-004	6	...........	-327.67
	3130	3131	1.04167E-001	1.60636E-006	0.00000E+000	1.04285E-001	4.30835E-004	6	...........	-327.67
	3140	3141	1.05784E-001	1.62111E-006	0.00000E+000	1.05884E-001	4.30985E-004	6	...........	-327.67
	3150	3151	1.07371E-001	1.63509E-006	0.00000E+000	1.07484E-001	4.30902E-004	6	...........	-327.67
	3160	3161	1.08973E-001	1.64631E-006	0.00000E+000	1.09084E-001	4.29868E-004	6	...........	-327.67
	3170	3171	1.10576E-001	1.65779E-006	0.00000E+000	1.10684E-001	4.30351E-004	6	...........	-327.67
	3180	3181	1.12172E-001	1.66859E-006	0.00000E+000	1.12284E-001	4.32153E-004	6	...........	-327.67
	3190	3191	1.13762E-001	1.68063E-006	0.00000E+000	1.13884E-001	4.31335E-004	6	...........	-327.67
	3200	3201	1.15375E-001	1.69185E-006	0.00000E+000	1.15484E-001	4.32052E-004	6	...........	-327.67
	3210	3211	1.16984E-001	1.70259E-006	0.00000E+000	1.17084E-001	4.31552E-004	6	...........	-327.67
	3220	3221	1.18561E-001	1.71379E-006	0.00000E+000	1.18684E-001	4.30952E-004	6	...........	-327.67
	3230	3231	1.20176E-001	1.72867E-006	0.00000E+000	1.20284E-001	4.28450E-004	6	...........	-327.67
	3240	3241	1.21777E-001	1.74618E-006	0.00000E+000	1.21883E-001	4.30101E-004	6	...........	-327.67
	3250	3251	1.23372E-001	1.76211E-006	0.00000E+000	1.23483E-001	4.28700E-004	6	...........	-327.67
	3260	3261	1.24971E-001	1.77633E-006	0.00000E+000	1.25083E-001	4.30251E-004	6	...........	-327.67
	3270	3271	1.26574E-001	1.79052E-006	0.00000E+000	1.26683E-001	4.29734E-004	6	...........	-327.67
	3280	3281	1.28167E-001	1.80629E-006	0.00000E+000	1.28283E-001	4.29351E-004	6	...........	-327.67
	3290	3291	1.29771E-001	1.82302E-006	0.00000E+000	1.29882E-001	4.29217E-004	6	...........	-327.67
	3300	3301	1.31379E-001	1.84415E-006	0.00000E+000	1.31482E-001	4.29985E-004	6	...........	-327.67
	3310	3311	1.32974E-001	1.86268E-006	0.00000E+000	1.33082E-001	4.31152E-004	6	...........	-327.67
	3320	3321	1.34565E-001	1.88200E-006	0.00000E+000	1.34682E-001	4.31385E-004	6	...........	-327.67
	3330	3331	1.36172E-001	1.90300E-006	0.00000E+000	1.36281E-001	4.29751E-004	6	...........	-327.67
	3340	3341	1.37767E-001	1.92559E-006	0.00000E+000	1.37881E-001	4.32619E-004	6	...........	-327.67
	3350	3351	1.39365E-001	1.94768E-006	0.00000E+000	1.39481E-001	4.28901E-004	6	...........	-327.67
	3360	3361	1.40960E-001	1.97035E-006	0.00000E+000	1.41081E-001	4.28784E-004	6	...........	-327.67
	3370	3371	1.42560E-001	1.99418E-006	0.00000E+000	1.42681E-001	4.28801E-004	6	...........	-327.67
	3380	3381	1.44151E-001	2.01791E-006	0.00000E+000	1.44280E-001	4.29301E-004	6	...........	-327.67
	3390	3391	1.45748E-001	2.04327E-006	0.00000E+000	1.45880E-001	4.28467E-004	6	...........	-327.67
	3400	3401	1.47353E-001	2.07034E-006	0.00000E+000	1.47480E-001	4.28584E-004	6	...........	-327.67
	3410	3411	1.48957E-001	2.09764E-006	0.00000E+000	1.49080E-001	4.30335E-004	6	...........	-327.67
	3420	3421	1.50544E-001	2.12690E-006	0.00000E+000	1.50680E-001	4.28267E-004	6	...........	-327.67
	3430	3431	1.52145E-001	2.15843E-006	0.00000E+000	1.52280E-001	4.27233E-004	6	...........	-327.67
	3440	3441	1.53753E-001	2.19110E-006	0.00000E+000	1.53880E-001	4.27800E-004	6	...........	-327.67
	3450	3451	1.55360E-001	2.22502E-006	0.00000E+000	1.55480E-001	4.29468E-004	6	...........	-327.67
	3460	3461	1.56959E-001	2.25874E-006	0.00000E+000	1.57080E-001	4.29201E-004	6	...........	-327.67
	3470	3471	1.58556E-001	2.29509E-006	0.00000E+000	1.58680E-001	4.29818E-004	6	...........	-327.67
	3480	3481	1.60151E-001	2.33300E-006	0.00000E+000	1.60279E-001	4.30835E-004	6	...........	-327.67
	3490	3491	1.61742E-001	2.37066E-006	0.00000E+000	1.61879E-001	4.29451E-004	6	...........	-327.67
	3500	3501	1.63342E-001	2.41082E-006	0.00000E+000	1.63479E-001	4.28000E-004	6	...........	-327.67
	3510	3511	1.64942E-001	2.45051E-006	0.00000E+000	1.65079E-001	4.29551E-004	6	...........	-327.67
	3520	3521	1.66522E-001	2.48802E-006	0.00000E+000	1.66679E-001	4.31385E-004	6	...........	-327.67
	3530	3531	1.68138E-001	2.53063E-006	0.00000E+000	1.68278E-001	4.31319E-004	6	...........	-327.67
	3540	3541	1.69737E-001	2.57946E-006	0.00000E+000	1.69878E-001	4.31569E-004	6	...........	-327.67
	3550	3551	1.71329E-001	2.63774E-006	0.00000E+000	1.71478E-001	4.29884E-004	6	...........	-327.67
	3560	3561	1.72927E-001	2.71937E-006	0.00000E+000	1.73078E-001	4.30085E-004	6	...........	-327.67
	3570	3571	1.74532E-001	2.83295E-006	0.00000E+000	1.74678E-001	4.28984E-004	6	...........	-327.67
	3580	3581	1.76119E-001	2.99102E-006	0.00000E+000	1.76277E-001	4.31786E-004	6	...........	-327.67
	3590	3591	1.77703E-001	3.20833E-006	0.00000E+000	1.77877E-001	4.30235E-004	6	...........	-327.67
	3600	3601	1.79290E-001	3.50204E-006	0.00000E+000	1.79477E-001	4.30735E-004	6	...........	-327.67
	3610	3611	1.80870E-001	3.87674E-006	0.00000E+000	1.81077E-001	4.29618E-004	6	...........	-327.67
	3620	3621	1.82445E-001	4.31906E-006	0.00000E+000	1.82677E-001	4.29234E-004	6	...........	-327.67
	3630	3631	1.84023E-001	4.82281E-006	0.00000E+000	1.84277E-001	4.31502E-004	6	...........	-327.67
	3640	3641	1.85599E-001	5.38592E-006	0.00000E+000	1.85877E-001	4.30668E-004	6	...........	-327.67
	3650	3651	1.87459E-001	6.02356E-006	0.00000E+000	1.87509E-001	4.30902E-004	7	...........	-327.67
	3660	3661	1.89062E-001	6.65736E-006	0.00000E+000	1.89109E-001	4.31302E-004	7	...........	-327.67
	3670	3671	1.90654E-001	7.31447E-006	0.00000E+000	1.90709E-001	4.32219E-004	7	...........	-327.67
	3680	3681	1.92263E-001	7.98740E-006	0.00000E+000	1.92309E-001	4.30035E-004	7	...........	-327.67
	3690	3691	1.93856E-001	8.66239E-006	0.00000E+000	1.93909E-001	4.31602E-004	7	...........	-327.67
	3700	3701	1.95446E-001	9.34420E-006	0.00000E+000	1.95509E-001	4.30335E-004	7	...........	-327.67
	3710	3711	1.97038E-001	1.00284E-005	0.00000E+000	1.97109E-001	4.30685E-004	7	...........	-327.67
	3720	3721	1.98640E-001	1.07112E-005	0.00000E+000	1.98709E-001	4.32936E-004	7	...........	-327.67
	3730	3731	2.00233E-001	1.14006E-005	0.00000E+000	2.00309E-001	4.31035E-004	7	...........	-327.67
	3740	3741	2.01827E-001	1.20976E-005	0.00000E+000	2.01909E-001	4.32353E-004	7	...........	-327.67
	3750	3751	2.03427E-001	1.27983E-005	0.00000E+000	2.03509E-001	4.28550E-004	7	...........	-327.67
	3760	3761	2.05034E-001	1.34975E-005	0.00000E+000	2.05108E-001	4.29701E-004	7	...........	-327.67
	3770	3771	2.06614E-001	1.42151E-005	0.00000E+000	2.06708E-001	4.32203E-004	7	...........	-327.67
	3780	3781	2.08200E-001	1.49538E-005	0.00000E+000	2.08308E-001	4.29351E-004	7	...........	-327.67
	3790	3791	2.09805E-001	1.57311E-005	0.00000E+000	2.09908E-001	4.29301E-004	7	...........	-327.67
	3800	3801	2.11397E-001	1.65522E-005	0.00000E+000	2.11508E-001	4.29318E-004	7	...........	-327.67
	3810	3811	2.13005E-001	1.74376E-005	0.00000E+000	2.13108E-001	4.29534E-004	7	...........	-327.67
	3820	3821	2.14597E-001	1.83834E-005	0.00000E+000	2.14708E-001	4.29918E-004	7	...........	-327.67
	3830	3831	2.16185E-001	1.94042E-005	0.00000E+000	2.16308E-001	4.30568E-004	7	...........	-327.67
	3840	3841	2.17790E-001	2.05258E-005	0.00000E+000	2.17907E-001	4.29217E-004	7	...........	-327.67
	3850	3851	2.19372E-001	2.17496E-005	0.00000E+000	2.19507E-001	4.28600E-004	7	...........	-327.67
	3860	3861	2.20959E-001	2.31161E-005	0.00000E+000	2.21107E-001	4.27950E-004	7	...........	-327.67
	3870	3871	2.22554E-001	2.46427E-005	0.00000E+000	2.22707E-001	4.29634E-004	7	...........	-327.67
	3880	3881	2.24139E-001	2.63367E-005	0.00000E+000	2.24307E-001	4.29451E-004	7	...........	-327.67
	3890	3891	2.25712E-001	2.82094E-005	0.00000E+000	2.25907E-001	4.30535E-004	7	...........	-327.67
	3900	3901	2.27322E-001	3.02677E-005	0.00000E+000	2.27507E-001	4.32670E-004	7	...........	-327.67
	3910	3911	2.28907E-001	3.25052E-005	0.00000E+000	2.29107E-001	4.28817E-004	7	...........	-327.67
	3920	3921	2.30500E-001	3.48954E-005	0.00000E+000	2.30707E-001	4.28167E-004	7	...........	-327.67
	3930	3931	2.32082E-001	3.74685E-005	0.00000E+000	2.32306E-001	4.28634E-004	7	...........	-327.67
	3940	3941	2.33666E-001	4.02072E-005	0.00000E+000	2.33906E-001	4.30135E-004	7	...........	-327.67
	3950	3951	2.35253E-001	4.30954E-005	0.00000E+000	2.35506E-001	4.29067E-004	7	...........	-327.67
	3960	3961	2.36836E-001	4.61408E-005	0.00000E+000	2.37106E-001	4.29701E-004	7	...........	-327.67
	3970	3971	2.38425E-001	4.93437E-005	0.00000E+000	2.38706E-001	4.30818E-004	7	...........	-327.67
	3980	3981	2.40003E-001	5.27222E-005	0.00000E+000	2.40306E-001	4.30235E-004	7	...........	-327.67
	3990	3991	2.41829E-001	5.67180E-005	0.00000E+000	2.41905E-001	4.31969E-004	8	...........	-327.67
	4000	4001	2.43424E-001	6.05583E-005	0.00000E+000	2.43505E-001	4.29151E-004	8	...........	-327.67
	4010	4011	2.45013E-001	6.46174E-005	0.00000E+000	2.45105E-001	4.30101E-004	8	...........	-327.67
	4020	4021	2.46617E-001	6.88936E-005	0.00000E+000	2.46705E-001	4.27833E-004	8	...........	-327.67
	4030	4031	2.48217E-001	7.33476E-005	0.00000E+000	2.48305E-001	4.32102E-004	8	...........	-327.67
	4040	4041	2.49816E-001	7.79949E-005	0.00000E+000	2.49905E-001	4.29684E-004	8	...........	-327.67
	4050	4051	2.51397E-001	8.28473E-005	0.00000E+000	2.51505E-001	4.31202E-004	8	...........	-327.67
	4060	4061	2.53001E-001	8.79972E-005	0.00000E+000	2.53105E-001	4.30435E-004	8	...........	-327.67
	4070	4071	2.54590E-001	9.33870E-005	0.00000E+000	2.54705E-001	4.30485E-004	8	...........	-327.67
	4080	4081	2.56204E-001	9.90892E-005	0.00000E+000	2.56305E-001	4.31019E-004	8	...........	-327.67
	4090	4091	2.57799E-001	1.05069E-004	0.00000E+000	2.57905E-001	4.29434E-004	8	...........	-327.67
	4100	4101	2.59392E-001	1.11362E-004	0.00000E+000	2.59505E-001	4.29935E-004	8	...........	-327.67
	4110	4111	2.60977E-001	1.17987E-004	0.00000E+000	2.61105E-001	4.27933E-004	8	...........	-327.67
	4120	4121	2.62583E-001	1.24990E-004	0.00000E+000	2.62705E-001	4.28200E-004	8	...........	-327.67
	4130	4131	2.64188E-001	1.32315E-004	0.00000E+000	2.64304E-001	4.29267E-004	8	...........	-327.67
	4140	4141	2.65774E-001	1.39928E-004	0.00000E+000	2.65904E-001	4.28300E-004	8	...........	-327.67
	4150	4151	2.67322E-001	1.47913E-004	0.00000E+000	2.67504E-001	4.27133E-004	8	...........	-327.67
	4160	4161	2.68921E-001	1.56270E-004	0.00000E+000	2.69104E-001	4.29985E-004	8	...........	-327.67
	4170	4171	2.70514E-001	1.64982E-004	0.00000E+000	2.70704E-001	4.30185E-004	8	...........	-327.67
	4180	4181	2.72114E-001	1.74114E-004	0.00000E+000	2.72304E-001	4.30401E-004	8	...........	-327.67
	4190	4191	2.73704E-001	1.83524E-004	0.00000E+000	2.73904E-001	4.32719E-004	8	...........	-327.67
	4200	4201	2.75303E-001	1.93228E-004	0.00000E+000	2.75504E-001	4.31652E-004	8	...........	-327.67
	4210	4211	2.76896E-001	2.03452E-004	0.00000E+000	2.77104E-001	4.30018E-004	8	...........	-327.67
	4220	4221	2.78481E-001	2.14167E-004	0.00000E+000	2.78703E-001	4.29768E-004	8	...........	-327.67
	4230	4231	2.80080E-001	2.25409E-004	0.00000E+000	2.80303E-001	4.28901E-004	8	...........	-327.67
	4240	4241	2.81667E-001	2.36932E-004	0.00000E+000	2.81903E-001	4.29568E-004	8	...........	-327.67
	4250	4251	2.83265E-001	2.48887E-004	0.00000E+000	2.83503E-001	4.27566E-004	8	...........	-327.67
	4260	4261	2.84854E-001	2.61165E-004	0.00000E+000	2.85103E-001	4.29951E-004	8	...........	-327.67
	4270	4271	2.86442E-001	2.73887E-004	0.00000E+000	2.86703E-001	4.30585E-004	8	...........	-327.67
	4280	4281	2.88040E-001	2.87240E-004	0.00000E+000	2.88303E-001	4.28634E-004	8	...........	-327.67
	4290	4291	2.89637E-001	3.01229E-004	0.00000E+000	2.89903E-001	4.28934E-004	8	...........	-327.67
	4300	4301	2.91228E-001	3.15833E-004	0.00000E+000	2.91502E-001	4.29451E-004	8	...........	-327.67
	4310	4311	2.92813E-001	3.30978E-004	0.00000E+000	2.93102E-001	4.28150E-004	8	...........	-327.67
	4320	4321	2.94406E-001	3.46718E-004	0.00000E+000	2.94702E-001	4.29985E-004	8	...........	-327.67
	4330	4331	2.96008E-001	3.63129E-004	0.00000E+000	2.96302E-001	4.27967E-004	8	...........	-327.67
	4340	4341	2.97602E-001	3.80288E-004	0.00000E+000	2.97902E-001	4.27633E-004	8	...........	-327.67
	4350	4351	2.99197E-001	3.98289E-004	0.00000E+000	2.99502E-001	4.27600E-004	8	...........	-327.67
	4360	4361	3.00780E-001	4.17098E-004	0.00000E+000	3.01102E-001	4.30185E-004	8	...........	-327.67
	4370	4371	3.02369E-001	4.36842E-004	0.00000E+000	3.02702E-001	4.31736E-004	8	...........	-327.67
	4380	4381	3.03950E-001	4.57402E-004	0.00000E+000	3.04302E-001	4.27700E-004	8	...........	-327.67
	4390	4391	3.05548E-001	4.79130E-004	0.00000E+000	3.05902E-001	4.30435E-004	8	...........	-327.67
	4400	4401	3.07142E-001	5.01965E-004	0.00000E+000	3.07502E-001	4.28617E-004	8	...........	-327.67
	4410	4411	3.08720E-001	5.25862E-004	0.00000E+000	3.09102E-001	4.29318E-004	8	...........	-327.67
	4420	4421	3.10549E-001	5.53461E-004	0.00000E+000	3.10673E-001	4.29634E-004	9	...........	-327.67
	4430	4431	3.12135E-001	5.79060E-004	0.00000E+000	3.12273E-001	4.29601E-004	9	...........	-327.67
	4440	4441	3.13733E-001	6.05398E-004	0.00000E+000	3.13872E-001	4.30101E-004	9	...........	-327.67
	4450	4451	3.15335E-001	6.32438E-004	0.00000E+000	3.15472E-001	4.28867E-004	9	...........	-327.67
	4460	4461	3.16936E-001	6.60326E-004	0.00000E+000	3.17072E-001	4.28667E-004	9	...........	-327.67
	4470	4471	3.18535E-001	6.89087E-004	0.00000E+000	3.18672E-001	4.27350E-004	9	...........	-327.67
	4480	4481	3.20132E-001	7.18129E-004	0.00000E+000	3.20271E-001	4.28334E-004	9	...........	-327.67
	4490	4491	3.21739E-001	7.47504E-004	0.00000E+000	3.21871E-001	4.28467E-004	9	...........	-327.67
	4500	4501	3.23326E-001	7.77422E-004	0.00000E+000	3.23471E-001	4.28150E-004	9	...........	-327.67
	4510	4511	3.24926E-001	8.08271E-004	0.00000E+000	3.25071E-001	4.28267E-004	9	...........	-327.67
	4520	4521	3.26522E-001	8.39317E-004	0.00000E+000	3.26670E-001	4.26749E-004	9	...........	-327.67
	4530	4531	3.28123E-001	8.70982E-004	0.00000E+000	3.28270E-001	4.28384E-004	9	...........	-327.67
	4540	4541	3.29723E-001	9.03194E-004	0.00000E+000	3.29870E-001	4.29801E-004	9	...........	-327.67
	4550	4551	3.31323E-001	9.35958E-004	0.00000E+000	3.31470E-001	4.28184E-004	9	...........	-327.67
	4560	4561	3.32924E-001	9.69533E-004	0.00000E+000	3.33070E-001	4.27600E-004	9	...........	-327.67
	4570	4571	3.34529E-001	1.00399E-003	0.00000E+000	3.34670E-001	4.30018E-004	9	...........	-327.67
	4580	4581	3.36121E-001	1.03946E-003	0.00000E+000	3.36270E-001	4.30168E-004	9	...........	-327.67
	4590	4591	3.37722E-001	1.07608E-003	0.00000E+000	3.37870E-001	4.27717E-004	9	...........	-327.67
	4600	4601	3.39316E-001	1.11355E-003	0.00000E+000	3.39469E-001	4.29084E-004	9	...........	-327.67
	4610	4611	3.40920E-001	1.15150E-003	0.00000E+000	3.41069E-001	4.30401E-004	9	...........	-327.67
	4620	4621	3.42526E-001	1.19003E-003	0.00000E+000	3.42669E-001	4.29518E-004	9	...........	-327.67
	4630	4631	3.44107E-001	1.22855E-003	0.00000E+000	3.44269E-001	4.29434E-004	9	...........	-327.67
	4640	4641	3.45717E-001	1.26951E-003	0.00000E+000	3.45868E-001	4.27583E-004	9	...........	-327.67
	4650	4651	3.47306E-001	1.31229E-003	0.00000E+000	3.47468E-001	4.29451E-004	9	...........	-327.67
	4660	4661	3.48907E-001	1.35847E-003	0.00000E+000	3.49068E-001	4.29551E-004	9	...........	-327.67
	4670	4671	3.50495E-001	1.40745E-003	0.00000E+000	3.50668E-001	4.29518E-004	9	...........	-327.67
	4680	4681	3.52098E-001	1.45871E-003	0.00000E+000	3.52267E-001	4.28867E-004	9	...........	-327.67
	4687	4688	3.53211E-001	1.49518E-003	0.00000E+000	3.53388E-001	4.27633E-004	9	...........	-327.67